text,congruent,corrAns,letterColor,practice.thisRepN,practice.thisTrialN,practice.thisN,practice.thisIndex,trials.thisRepN,trials.thisTrialN,trials.thisN,trials.thisIndex,resp.keys,resp.corr,resp.rt,date,frameRate,expName,session,participant,
green,incong,left,red,0,0,0,4,,,,,left,1,0.716556072235,2018_Aug_01_1441,60.1123621271,emo_stroop,01,eeee,
blue,incong,left,red,0,1,1,8,,,,,left,1,0.184382915497,2018_Aug_01_1441,60.1123621271,emo_stroop,01,eeee,
blue,cong,right,blue,0,2,2,10,,,,,down,0,0.00163221359253,2018_Aug_01_1441,60.1123621271,emo_stroop,01,eeee,
red,cong,left,red,0,3,3,0,,,,,down,0,0.400806903839,2018_Aug_01_1441,60.1123621271,emo_stroop,01,eeee,
blue,incong,down,green,0,4,4,9,,,,,right,0,0.117572069168,2018_Aug_01_1441,60.1123621271,emo_stroop,01,eeee,
red,cong,left,red,0,5,5,1,,,,,left,1,0.000450134277344,2018_Aug_01_1441,60.1123621271,emo_stroop,01,eeee,
blue,cong,right,blue,0,6,6,11,,,,,right,1,0.084725856781,2018_Aug_01_1441,60.1123621271,emo_stroop,01,eeee,
green,cong,down,green,0,7,7,5,,,,,left,0,0.0354061126709,2018_Aug_01_1441,60.1123621271,emo_stroop,01,eeee,
green,incong,right,blue,0,8,8,7,,,,,right,1,0.0681822299957,2018_Aug_01_1441,60.1123621271,emo_stroop,01,eeee,
red,incong,right,blue,0,9,9,3,,,,,down,0,0.00236177444458,2018_Aug_01_1441,60.1123621271,emo_stroop,01,eeee,
green,cong,down,green,0,10,10,6,,,,,right,0,0.0179109573364,2018_Aug_01_1441,60.1123621271,emo_stroop,01,eeee,
red,incong,down,green,0,11,11,2,,,,,left,0,0.00153017044067,2018_Aug_01_1441,60.1123621271,emo_stroop,01,eeee,
green,incong,right,blue,,,,,0,0,0,7,down,0,0.101866006851,2018_Aug_01_1441,60.1123621271,emo_stroop,01,eeee,
blue,incong,left,red,,,,,0,1,1,8,left,1,0.0688529014587,2018_Aug_01_1441,60.1123621271,emo_stroop,01,eeee,
blue,incong,down,green,,,,,0,2,2,9,down,1,0.00151515007019,2018_Aug_01_1441,60.1123621271,emo_stroop,01,eeee,
green,cong,down,green,,,,,0,3,3,6,right,0,0.00147700309753,2018_Aug_01_1441,60.1123621271,emo_stroop,01,eeee,
red,cong,left,red,,,,,0,4,4,1,right,0,0.0183429718018,2018_Aug_01_1441,60.1123621271,emo_stroop,01,eeee,
red,incong,down,green,,,,,0,5,5,2,right,0,0.0182480812073,2018_Aug_01_1441,60.1123621271,emo_stroop,01,eeee,
blue,cong,right,blue,,,,,0,6,6,11,left,0,0.0678858757019,2018_Aug_01_1441,60.1123621271,emo_stroop,01,eeee,
blue,cong,right,blue,,,,,0,7,7,10,left,0,0.00152206420898,2018_Aug_01_1441,60.1123621271,emo_stroop,01,eeee,
red,incong,right,blue,,,,,0,8,8,3,right,1,0.134339809418,2018_Aug_01_1441,60.1123621271,emo_stroop,01,eeee,
red,cong,left,red,,,,,0,9,9,0,down,0,0.0179679393768,2018_Aug_01_1441,60.1123621271,emo_stroop,01,eeee,
green,cong,down,green,,,,,0,10,10,5,left,0,0.0676581859589,2018_Aug_01_1441,60.1123621271,emo_stroop,01,eeee,
green,incong,left,red,,,,,0,11,11,4,right,0,0.118218898773,2018_Aug_01_1441,60.1123621271,emo_stroop,01,eeee,
blue,cong,right,blue,,,,,1,0,12,10,left,0,0.10110616684,2018_Aug_01_1441,60.1123621271,emo_stroop,01,eeee,
green,cong,down,green,,,,,1,1,13,5,right,0,0.101251840591,2018_Aug_01_1441,60.1123621271,emo_stroop,01,eeee,
red,cong,left,red,,,,,1,2,14,0,left,1,0.0846681594849,2018_Aug_01_1441,60.1123621271,emo_stroop,01,eeee,
red,cong,left,red,,,,,1,3,15,1,right,0,0.134571075439,2018_Aug_01_1441,60.1123621271,emo_stroop,01,eeee,
green,incong,left,red,,,,,1,4,16,4,right,0,0.00151300430298,2018_Aug_01_1441,60.1123621271,emo_stroop,01,eeee,
blue,incong,left,red,,,,,1,5,17,8,right,0,0.000457048416138,2018_Aug_01_1441,60.1123621271,emo_stroop,01,eeee,
green,cong,down,green,,,,,1,6,18,6,right,0,0.00160908699036,2018_Aug_01_1441,60.1123621271,emo_stroop,01,eeee,
red,incong,right,blue,,,,,1,7,19,3,right,1,0.0334179401398,2018_Aug_01_1441,60.1123621271,emo_stroop,01,eeee,
green,incong,right,blue,,,,,1,8,20,7,down,0,0.00164103507996,2018_Aug_01_1441,60.1123621271,emo_stroop,01,eeee,
blue,cong,right,blue,,,,,1,9,21,11,down,0,0.00169801712036,2018_Aug_01_1441,60.1123621271,emo_stroop,01,eeee,
blue,incong,down,green,,,,,1,10,22,9,down,1,0.0180361270905,2018_Aug_01_1441,60.1123621271,emo_stroop,01,eeee,
red,incong,down,green,,,,,1,11,23,2,down,1,0.00150489807129,2018_Aug_01_1441,60.1123621271,emo_stroop,01,eeee,
green,cong,down,green,,,,,2,0,24,6,left,0,0.0848450660706,2018_Aug_01_1441,60.1123621271,emo_stroop,01,eeee,
red,incong,right,blue,,,,,2,1,25,3,left,0,0.0180640220642,2018_Aug_01_1441,60.1123621271,emo_stroop,01,eeee,
blue,incong,left,red,,,,,2,2,26,8,left,1,0.00150108337402,2018_Aug_01_1441,60.1123621271,emo_stroop,01,eeee,
red,incong,down,green,,,,,2,3,27,2,right,0,0.118000984192,2018_Aug_01_1441,60.1123621271,emo_stroop,01,eeee,
blue,incong,down,green,,,,,2,4,28,9,right,0,0.0347518920898,2018_Aug_01_1441,60.1123621271,emo_stroop,01,eeee,
blue,cong,right,blue,,,,,2,5,29,11,right,1,0.0678510665894,2018_Aug_01_1441,60.1123621271,emo_stroop,01,eeee,
green,incong,left,red,,,,,2,6,30,4,right,0,0.101188898087,2018_Aug_01_1441,60.1123621271,emo_stroop,01,eeee,
green,incong,right,blue,,,,,2,7,31,7,right,1,0.018187046051,2018_Aug_01_1441,60.1123621271,emo_stroop,01,eeee,
blue,cong,right,blue,,,,,2,8,32,10,down,0,0.0348470211029,2018_Aug_01_1441,60.1123621271,emo_stroop,01,eeee,
green,cong,down,green,,,,,2,9,33,5,down,1,0.0186281204224,2018_Aug_01_1441,60.1123621271,emo_stroop,01,eeee,
red,cong,left,red,,,,,2,10,34,1,right,0,0.0517220497131,2018_Aug_01_1441,60.1123621271,emo_stroop,01,eeee,
red,cong,left,red,,,,,2,11,35,0,right,0,0.118330001831,2018_Aug_01_1441,60.1123621271,emo_stroop,01,eeee,
green,incong,right,blue,,,,,3,0,36,7,right,1,0.00160884857178,2018_Aug_01_1441,60.1123621271,emo_stroop,01,eeee,
blue,incong,down,green,,,,,3,1,37,9,right,0,0.117873907089,2018_Aug_01_1441,60.1123621271,emo_stroop,01,eeee,
red,cong,left,red,,,,,3,2,38,1,right,0,0.0184938907623,2018_Aug_01_1441,60.1123621271,emo_stroop,01,eeee,
red,incong,down,green,,,,,3,3,39,2,right,0,0.0513751506805,2018_Aug_01_1441,60.1123621271,emo_stroop,01,eeee,
red,incong,right,blue,,,,,3,4,40,3,down,0,0.0859649181366,2018_Aug_01_1441,60.1123621271,emo_stroop,01,eeee,
blue,cong,right,blue,,,,,3,5,41,10,right,1,0.0844259262085,2018_Aug_01_1441,60.1123621271,emo_stroop,01,eeee,
green,cong,down,green,,,,,3,6,42,5,right,0,0.151034116745,2018_Aug_01_1441,60.1123621271,emo_stroop,01,eeee,
blue,incong,left,red,,,,,3,7,43,8,right,0,0.0514421463013,2018_Aug_01_1441,60.1123621271,emo_stroop,01,eeee,
green,incong,left,red,,,,,3,8,44,4,right,0,0.117902040482,2018_Aug_01_1441,60.1123621271,emo_stroop,01,eeee,
green,cong,down,green,,,,,3,9,45,6,left,0,0.00156903266907,2018_Aug_01_1441,60.1123621271,emo_stroop,01,eeee,
red,cong,left,red,,,,,3,10,46,0,right,0,0.00150489807129,2018_Aug_01_1441,60.1123621271,emo_stroop,01,eeee,
blue,cong,right,blue,,,,,3,11,47,11,right,1,0.0847718715668,2018_Aug_01_1441,60.1123621271,emo_stroop,01,eeee,
green,cong,down,green,,,,,4,0,48,5,right,0,0.0179860591888,2018_Aug_01_1441,60.1123621271,emo_stroop,01,eeee,
red,cong,left,red,,,,,4,1,49,1,down,0,0.0181579589844,2018_Aug_01_1441,60.1123621271,emo_stroop,01,eeee,
red,cong,left,red,,,,,4,2,50,0,right,0,0.0345990657806,2018_Aug_01_1441,60.1123621271,emo_stroop,01,eeee,
green,incong,right,blue,,,,,4,3,51,7,down,0,0.0685858726501,2018_Aug_01_1441,60.1123621271,emo_stroop,01,eeee,
green,cong,down,green,,,,,4,4,52,6,down,1,1.19846105576,2018_Aug_01_1441,60.1123621271,emo_stroop,01,eeee,
green,incong,left,red,,,,,4,5,53,4,left,1,0.467188835144,2018_Aug_01_1441,60.1123621271,emo_stroop,01,eeee,
blue,incong,left,red,,,,,4,6,54,8,right,0,0.00162506103516,2018_Aug_01_1441,60.1123621271,emo_stroop,01,eeee,
blue,cong,right,blue,,,,,4,7,55,10,right,1,0.0683350563049,2018_Aug_01_1441,60.1123621271,emo_stroop,01,eeee,
blue,incong,down,green,,,,,4,8,56,9,down,1,0.000549077987671,2018_Aug_01_1441,60.1123621271,emo_stroop,01,eeee,
red,incong,down,green,,,,,4,9,57,2,down,1,0.100044965744,2018_Aug_01_1441,60.1123621271,emo_stroop,01,eeee,
red,incong,right,blue,,,,,4,10,58,3,left,0,0.0847260951996,2018_Aug_01_1441,60.1123621271,emo_stroop,01,eeee,
blue,cong,right,blue,,,,,4,11,59,11,right,1,0.018373966217,2018_Aug_01_1441,60.1123621271,emo_stroop,01,eeee,
