text,corrAns,letterColor,condsFile,condition,practice.thisRepN,practice.thisTrialN,practice.thisN,practice.thisIndex,trials_2.thisRepN,trials_2.thisTrialN,trials_2.thisN,trials_2.thisIndex,trials.thisRepN,trials.thisTrialN,trials.thisN,trials.thisIndex,resp.keys,resp.corr,resp.rt,date,frameRate,expName,session,participant,
rojo,left,red,,,0,0,0,8,,,,,,,,,left,1,0.0676279067993,2018_Aug_24_2007,60.1261496823,emo_stroop,01,mm,
azul,right,blue,,,0,1,1,3,,,,,,,,,down,0,0.0844490528107,2018_Aug_24_2007,60.1261496823,emo_stroop,01,mm,
rojo,left,red,,,0,2,2,11,,,,,,,,,right,0,0.117506027222,2018_Aug_24_2007,60.1261496823,emo_stroop,01,mm,
verde,down,green,,,0,3,3,5,,,,,,,,,left,0,0.0179069042206,2018_Aug_24_2007,60.1261496823,emo_stroop,01,mm,
verde,down,green,,,0,4,4,7,,,,,,,,,right,0,0.101367950439,2018_Aug_24_2007,60.1261496823,emo_stroop,01,mm,
verde,down,green,,,0,5,5,6,,,,,,,,,down,1,0.00171089172363,2018_Aug_24_2007,60.1261496823,emo_stroop,01,mm,
verde,down,green,,,0,6,6,4,,,,,,,,,down,1,0.00136399269104,2018_Aug_24_2007,60.1261496823,emo_stroop,01,mm,
rojo,left,red,,,0,7,7,9,,,,,,,,,right,0,0.0347599983215,2018_Aug_24_2007,60.1261496823,emo_stroop,01,mm,
azul,right,blue,,,0,8,8,1,,,,,,,,,left,0,0.0183448791504,2018_Aug_24_2007,60.1261496823,emo_stroop,01,mm,
rojo,left,red,,,0,9,9,10,,,,,,,,,left,1,0.0677971839905,2018_Aug_24_2007,60.1261496823,emo_stroop,01,mm,
azul,right,blue,,,0,10,10,2,,,,,,,,,left,0,0.0350480079651,2018_Aug_24_2007,60.1261496823,emo_stroop,01,mm,
rojo,right,blue,,,0,11,11,0,,,,,,,,,left,0,0.251008987427,2018_Aug_24_2007,60.1261496823,emo_stroop,01,mm,
positiva5,down,green,None,positive,,,,,0,0,0,0,0,0,0,2,right,0,1.21512007713,2018_Aug_24_2007,60.1261496823,emo_stroop,01,mm,
positiva6,left,red,None,positive,,,,,0,0,0,0,0,1,1,5,right,0,0.367098093033,2018_Aug_24_2007,60.1261496823,emo_stroop,01,mm,
negativa6,left,red,None,negative,,,,,0,0,0,0,0,2,2,6,right,0,0.284204959869,2018_Aug_24_2007,60.1261496823,emo_stroop,01,mm,
neutral5,down,green,None,neutral,,,,,0,0,0,0,0,3,3,4,right,0,0.317239999771,2018_Aug_24_2007,60.1261496823,emo_stroop,01,mm,
negativa4,right,blue,None,negative,,,,,0,0,0,0,0,4,4,0,right,1,0.400670051575,2018_Aug_24_2007,60.1261496823,emo_stroop,01,mm,
negativa5,down,green,None,negative,,,,,0,0,0,0,0,5,5,3,right,0,0.434185028076,2018_Aug_24_2007,60.1261496823,emo_stroop,01,mm,
neutral6,left,red,None,neutral,,,,,0,0,0,0,0,6,6,7,right,0,0.283784866333,2018_Aug_24_2007,60.1261496823,emo_stroop,01,mm,
neutral4,right,blue,None,neutral,,,,,0,0,0,0,0,7,7,1,right,1,0.332782030106,2018_Aug_24_2007,60.1261496823,emo_stroop,01,mm,
positiva5,down,green,None,positive,,,,,0,0,0,0,1,0,8,2,right,0,0.300534009933,2018_Aug_24_2007,60.1261496823,emo_stroop,01,mm,
neutral5,down,green,None,neutral,,,,,0,0,0,0,1,1,9,4,right,0,1.3980858326,2018_Aug_24_2007,60.1261496823,emo_stroop,01,mm,
negativa4,right,blue,None,negative,,,,,0,0,0,0,1,2,10,0,right,1,1.16569113731,2018_Aug_24_2007,60.1261496823,emo_stroop,01,mm,
positiva6,left,red,None,positive,,,,,0,0,0,0,1,3,11,5,right,0,0.449878931046,2018_Aug_24_2007,60.1261496823,emo_stroop,01,mm,
neutral4,right,blue,None,neutral,,,,,0,0,0,0,1,4,12,1,right,1,0.317532062531,2018_Aug_24_2007,60.1261496823,emo_stroop,01,mm,
negativa5,down,green,None,negative,,,,,0,0,0,0,1,5,13,3,right,0,0.283963918686,2018_Aug_24_2007,60.1261496823,emo_stroop,01,mm,
neutral6,left,red,None,neutral,,,,,0,0,0,0,1,6,14,7,right,0,0.300883054733,2018_Aug_24_2007,60.1261496823,emo_stroop,01,mm,
negativa6,left,red,None,negative,,,,,0,0,0,0,1,7,15,6,right,0,0.283842086792,2018_Aug_24_2007,60.1261496823,emo_stroop,01,mm,
,,,,,,,,,0,0,0,0,,,,,,,,2018_Aug_24_2007,60.1261496823,emo_stroop,01,mm,
negativa6,left,red,None,negative,,,,,1,0,1,0,0,0,0,6,right,0,0.283999919891,2018_Aug_24_2007,60.1261496823,emo_stroop,01,mm,
negativa5,down,green,None,negative,,,,,1,0,1,0,0,1,1,3,right,0,0.583300113678,2018_Aug_24_2007,60.1261496823,emo_stroop,01,mm,
positiva5,down,green,None,positive,,,,,1,0,1,0,0,2,2,2,right,0,0.367110967636,2018_Aug_24_2007,60.1261496823,emo_stroop,01,mm,
neutral6,left,red,None,neutral,,,,,1,0,1,0,0,3,3,7,right,0,0.333966970444,2018_Aug_24_2007,60.1261496823,emo_stroop,01,mm,
neutral4,right,blue,None,neutral,,,,,1,0,1,0,0,4,4,1,right,1,0.184340953827,2018_Aug_24_2007,60.1261496823,emo_stroop,01,mm,
negativa4,right,blue,None,negative,,,,,1,0,1,0,0,5,5,0,right,1,0.266625165939,2018_Aug_24_2007,60.1261496823,emo_stroop,01,mm,
neutral5,down,green,None,neutral,,,,,1,0,1,0,0,6,6,4,right,0,0.300604820251,2018_Aug_24_2007,60.1261496823,emo_stroop,01,mm,
positiva6,left,red,None,positive,,,,,1,0,1,0,0,7,7,5,right,0,0.184243917465,2018_Aug_24_2007,60.1261496823,emo_stroop,01,mm,
neutral5,down,green,None,neutral,,,,,1,0,1,0,1,0,8,4,right,0,0.0177807807922,2018_Aug_24_2007,60.1261496823,emo_stroop,01,mm,
positiva5,down,green,None,positive,,,,,1,0,1,0,1,1,9,2,right,0,0.0510728359222,2018_Aug_24_2007,60.1261496823,emo_stroop,01,mm,
negativa5,down,green,None,negative,,,,,1,0,1,0,1,2,10,3,right,0,0.0347330570221,2018_Aug_24_2007,60.1261496823,emo_stroop,01,mm,
positiva6,left,red,None,positive,,,,,1,0,1,0,1,3,11,5,right,0,0.0344889163971,2018_Aug_24_2007,60.1261496823,emo_stroop,01,mm,
neutral6,left,red,None,neutral,,,,,1,0,1,0,1,4,12,7,down,0,0.0344479084015,2018_Aug_24_2007,60.1261496823,emo_stroop,01,mm,
neutral4,right,blue,None,neutral,,,,,1,0,1,0,1,5,13,1,down,0,0.00149893760681,2018_Aug_24_2007,60.1261496823,emo_stroop,01,mm,
negativa6,left,red,None,negative,,,,,1,0,1,0,1,6,14,6,left,1,0.234475135803,2018_Aug_24_2007,60.1261496823,emo_stroop,01,mm,
negativa4,right,blue,None,negative,,,,,1,0,1,0,1,7,15,0,left,0,0.0682330131531,2018_Aug_24_2007,60.1261496823,emo_stroop,01,mm,
,,,,,,,,,1,0,1,0,,,,,,,,2018_Aug_24_2007,60.1261496823,emo_stroop,01,mm,
